jv_spec_Tmat: Spheroidal mineral dust optical properties at 12 wavelengths (inderjeet singh, rvmartin, 09/05/2024 )
==========================================================================================================
W(nm)      Q      r-eff  ss-alb  pi(0)   pi(1)    pi(2)   pi(3)   pi(4)   pi(5)   pi(6)   pi(7)  
0.30000 3.70366 0.15080 0.96322 1.00000 2.12366 2.54765 2.41353 1.92008 1.28893 0.74330 0.31833
0.35000 3.28051 0.15080 0.97674 1.00000 2.08561 2.31035 1.93484 1.28066 0.65513 0.30345 0.09562
0.40000 2.73908 0.15080 0.98542 1.00000 2.02065 2.03926 1.47212 0.80843 0.30643 0.10868 0.02918
0.44000 2.32064 0.15080 0.98834 1.00000 1.95803 1.82171 1.14306 0.55843 0.18088 0.05208 0.01193
0.50000 1.74678 0.15080 0.99170 1.00000 1.85242 1.50582 0.74477 0.30392 0.08378 0.01919 0.00355
0.55000 1.38187 0.15080 0.99289 1.00000 1.76347 1.30457 0.55279 0.19320 0.04657 0.00909 0.00143
0.60000 1.07406 0.15080 0.99374 1.00000 1.65491 1.14526 0.43630 0.13198 0.02777 0.00466 0.00062
0.67500 0.69588 0.15080 0.96834 1.00000 1.41668 0.94265 0.32794 0.08212 0.01427 0.00192 0.00020
0.80000 0.42461 0.15080 0.96607 1.00000 1.02337 0.72208 0.21411 0.04017 0.00517 0.00050 0.00002
0.87000 0.33000 0.15080 0.95910 1.00000 0.85745 0.65432 0.17565 0.02832 0.00313 0.00025 0.00001
1.00000 0.20182 0.15080 0.98719 1.00000 0.64037 0.58394 0.12904 0.01604 0.00137 0.00007 0.00000
1.02000 0.18780 0.15080 0.99102 1.00000 0.61487 0.57698 0.12374 0.01483 0.00121 0.00006 0.00000
0.30000 3.01516 0.25060 0.92205 1.00000 1.92584 2.57932 2.77644 2.87897 2.82592 2.70997 2.46430
0.35000 3.54451 0.25060 0.96162 1.00000 2.05022 2.70495 2.91284 2.89298 2.67155 2.31674 1.84314
0.40000 3.81512 0.25060 0.98071 1.00000 2.12343 2.73298 2.86036 2.66696 2.24584 1.71207 1.13239
0.44000 3.83139 0.25060 0.98673 1.00000 2.14413 2.69032 2.71212 2.37328 1.82497 1.24108 0.69564
0.50000 3.59447 0.25060 0.99215 1.00000 2.15036 2.57332 2.40884 1.87761 1.22239 0.68564 0.28637
0.55000 3.28706 0.25060 0.99407 1.00000 2.12890 2.43162 2.11259 1.47836 0.82233 0.40301 0.13888
0.60000 2.94365 0.25060 0.99538 1.00000 2.09290 2.26573 1.80747 1.12375 0.52242 0.22320 0.06898
0.67500 2.30986 0.25060 0.97962 1.00000 2.04668 2.03427 1.39843 0.74134 0.27474 0.09102 0.02398
0.80000 1.68023 0.25060 0.98063 1.00000 1.90226 1.60653 0.83813 0.35532 0.10380 0.02527 0.00500
0.87000 1.40072 0.25060 0.97797 1.00000 1.81963 1.41109 0.64330 0.24024 0.06246 0.01324 0.00228
1.00000 0.96490 0.25060 0.99388 1.00000 1.63648 1.13437 0.43425 0.12978 0.02716 0.00452 0.00061
1.02000 0.90973 0.25060 0.99580 1.00000 1.60211 1.09832 0.41237 0.11942 0.02420 0.00388 0.00049
0.30000 2.38787 0.42440 0.85004 1.00000 2.01935 2.92033 3.38344 3.84733 4.08429 4.34859 4.44939
0.35000 2.44046 0.42440 0.90719 1.00000 1.87568 2.64780 2.94290 3.26384 3.39167 3.56627 3.60830
0.40000 2.62359 0.42440 0.95066 1.00000 1.84200 2.53922 2.75577 2.96396 3.01130 3.07875 3.01388
0.44000 2.83593 0.42440 0.96786 1.00000 1.87730 2.55327 2.75339 2.89432 2.87270 2.82370 2.64228
0.50000 3.20378 0.42440 0.98376 1.00000 1.98030 2.65128 2.85677 2.90531 2.76722 2.54152 2.20450
0.55000 3.43604 0.42440 0.98960 1.00000 2.05840 2.71832 2.91782 2.88463 2.64423 2.29739 1.87379
0.60000 3.59951 0.42440 0.99289 1.00000 2.10734 2.74932 2.91043 2.78758 2.45380 2.02651 1.55866
0.67500 3.62385 0.42440 0.97572 1.00000 2.20780 2.82192 2.91018 2.64305 2.17604 1.66860 1.17239
0.80000 3.40794 0.42440 0.98138 1.00000 2.19416 2.66844 2.55805 2.10165 1.52321 1.01477 0.58715
0.87000 3.19854 0.42440 0.98087 1.00000 2.17413 2.55936 2.33566 1.80903 1.21139 0.73708 0.37493
1.00000 2.76870 0.42440 0.99555 1.00000 2.11363 2.31764 1.90727 1.31060 0.74164 0.37693 0.14695
1.02000 2.70028 0.42440 0.99701 1.00000 2.10398 2.28038 1.84537 1.24364 0.68433 0.33874 0.12731
0.30000 2.29092 0.80460 0.77666 1.00000 2.35287 3.51913 4.36755 5.18067 5.84412 6.53569 7.11815
0.35000 2.33684 0.80460 0.84858 1.00000 2.22700 3.31022 4.02058 4.70894 5.20366 5.75885 6.18955
0.40000 2.38325 0.80460 0.90732 1.00000 2.12668 3.15251 3.77532 4.38222 4.75688 5.20677 5.51402
0.44000 2.41345 0.80460 0.93233 1.00000 2.07192 3.06705 3.64447 4.21462 4.53313 4.92439 5.16219
0.50000 2.41110 0.80460 0.95950 1.00000 1.98862 2.92265 3.41901 3.91368 4.15769 4.46640 4.62030
0.55000 2.37733 0.80460 0.97042 1.00000 1.91033 2.76947 3.17523 3.59078 3.77308 4.02103 4.12339
0.60000 2.34802 0.80460 0.97836 1.00000 1.84025 2.61962 2.92330 3.24790 3.36633 3.55788 3.62190
0.67500 2.44447 0.80460 0.92951 1.00000 1.89155 2.61088 2.84642 3.05367 3.12822 3.24988 3.28985
0.80000 2.79867 0.80460 0.95418 1.00000 1.95507 2.65265 2.88904 3.03024 3.04932 3.05610 2.97456
0.87000 3.05166 0.80460 0.95921 1.00000 2.02902 2.74402 3.01627 3.14131 3.12244 3.04005 2.84968
1.00000 3.48343 0.80460 0.99248 1.00000 2.10778 2.82571 3.10445 3.15217 3.00890 2.73609 2.34737
1.02000 3.53560 0.80460 0.99512 1.00000 2.11783 2.83388 3.10823 3.14039 2.97438 2.67223 2.25649
0.30000 2.19468 1.49710 0.69142 1.00000 2.56962 3.94105 5.10407 6.22198 7.27467 8.33191 9.33503
0.35000 2.21622 1.49710 0.77446 1.00000 2.42678 3.66290 4.63594 5.58215 6.42493 7.30381 8.11240
0.40000 2.23848 1.49710 0.85285 1.00000 2.30001 3.44001 4.26828 5.09032 5.76941 6.51530 7.17543
0.44000 2.25443 1.49710 0.88880 1.00000 2.23802 3.33894 4.10142 4.86674 5.46639 6.14722 6.73137
0.50000 2.27162 1.49710 0.93015 1.00000 2.17051 3.22734 3.91449 4.60343 5.10548 5.69952 6.19173
0.55000 2.29946 1.49710 0.94825 1.00000 2.13584 3.17748 3.83008 4.48398 4.93393 5.48347 5.92768
0.60000 2.32392 1.49710 0.96154 1.00000 2.11144 3.13723 3.76420 4.38500 4.78978 5.29631 5.69278
0.67500 2.35104 1.49710 0.88042 1.00000 2.22333 3.29595 3.99131 4.62805 5.06556 5.55002 5.93087
0.80000 2.40070 1.49710 0.90714 1.00000 2.14055 3.16322 3.78300 4.36340 4.72037 5.12090 5.39757
0.87000 2.40705 1.49710 0.90879 1.00000 2.10607 3.09563 3.67673 4.21911 4.54240 4.90396 5.13623
1.00000 2.38010 1.49710 0.97883 1.00000 1.93591 2.79871 3.21183 3.61137 3.80054 4.05085 4.17943
1.02000 2.38036 1.49710 0.98586 1.00000 1.91082 2.75302 3.14330 3.52348 3.69797 3.93649 4.05329
0.30000 2.14451 2.48980 0.62121 1.00000 2.70726 4.28046 5.68007 7.04073 8.39770 9.76411 11.08743
0.35000 2.15524 2.48980 0.70081 1.00000 2.57498 4.00651 5.16596 6.28119 7.39065 8.56689 9.67868
0.40000 2.17346 2.48980 0.79190 1.00000 2.42032 3.70070 4.70617 5.68143 6.55486 7.52428 8.44270
0.44000 2.17989 2.48980 0.83900 1.00000 2.34140 3.56717 4.48485 5.38258 6.15006 7.03835 7.86609
0.50000 2.20148 2.48980 0.89586 1.00000 2.26593 3.40635 4.25041 5.07883 5.76155 6.53425 7.24552
0.55000 2.21507 2.48980 0.92243 1.00000 2.22404 3.33762 4.13426 4.92099 5.54743 6.26818 6.92344
0.60000 2.22017 2.48980 0.94133 1.00000 2.20896 3.29007 4.04303 4.79918 5.38836 6.06808 6.67094
0.67500 2.24360 2.48980 0.82842 1.00000 2.37763 3.56245 4.44719 5.27735 5.98045 6.72082 7.40379
0.80000 2.26709 2.48980 0.86227 1.00000 2.30135 3.43215 4.22664 4.97103 5.56399 6.20851 6.78185
0.87000 2.28522 2.48980 0.86401 1.00000 2.28798 3.40935 4.18380 4.90485 5.46568 6.07868 6.61450
1.00000 2.32195 2.48980 0.96545 1.00000 2.13131 3.16245 3.79925 4.40319 4.79798 5.28338 5.67581
1.02000 2.33006 2.48980 0.97647 1.00000 2.11002 3.13425 3.75500 4.34879 4.72565 5.19770 5.57285
0.30000 2.10997 3.72130 0.58350 1.00000 2.77020 4.43910 5.99470 7.56445 9.11375 10.66350 12.18000
0.35000 2.12366 3.72130 0.64557 1.00000 2.68377 4.23170 5.51880 6.87007 8.20293 9.56617 10.89333
0.40000 2.13017 3.72130 0.75200 1.00000 2.65120 4.15985 5.37180 6.64803 7.92075 9.20838 10.46275
0.44000 2.13779 3.72130 0.79045 1.00000 2.46560 3.85040 4.66668 5.68483 6.66142 7.70890 8.69862
0.50000 2.15010 3.72130 0.86127 1.00000 2.34797 3.67202 4.44447 5.25007 6.10053 7.06858 7.89217
0.55000 2.16819 3.72130 0.89596 1.00000 2.26644 3.52218 4.35349 5.13944 5.85875 6.74619 7.55134
0.60000 2.17486 3.72130 0.91869 1.00000 2.24409 3.46613 4.27717 5.02558 5.67959 6.53150 7.30548
0.67500 2.18836 3.72130 0.77641 1.00000 2.47441 3.77441 4.80358 5.76398 6.63228 7.56582 8.47149
0.80000 2.19166 3.72130 0.81842 1.00000 2.40498 3.62812 4.57888 5.46754 6.24342 7.06433 7.84670
0.87000 2.20673 3.72130 0.82038 1.00000 2.39505 3.60173 4.52590 5.39392 6.14299 6.93141 7.67258
1.00000 2.24263 3.72130 0.95133 1.00000 2.20497 3.28242 4.01763 4.73563 5.28300 5.91027 6.47135
1.02000 2.24903 3.72130 0.96667 1.00000 2.18211 3.24805 3.96288 4.66871 5.19362 5.80723 6.34841
